m/z	Absolute Intensity
34.60	4
35.60	75
38.00	46
39.15	63
40.10	897
41.10	675
42.10	20
45.15	304
48.10	11
50.10	205
52.10	94
53.10	100
54.10	59
55.10	201
57.10	2184
58.10	139
59.10	690
61.00	110
62.10	62
63.00	70
65.00	39
67.00	3
68.00	18
69.10	100
71.10	63
72.10	9
73.10	49
74.10	26
77.10	121
79.10	87
80.00	9
81.10	78
85.10	234
87.10	179
88.10	2204
89.10	183
92.10	15
95.10	11
98.10	10
99.10	60
100.10	28
101.05	326
102.10	6
104.10	4
105.10	30
106.10	20
107.10	3
110.00	17
116.00	36
120.00	24
121.00	2
122.00	14
123.10	24
124.10	2
125.00	51
127.10	33
128.00	10
129.10	19
131.10	10
133.10	28
138.10	13
139.10	8
140.10	31
142.10	9
144.00	50
146.00	7
147.10	34
148.10	15
149.00	50
153.10	8
154.10	24
156.10	15
157.10	27
158.10	36
159.10	10
161.00	6
164.10	22
165.10	7
170.10	25
171.00	52
173.00	34
174.10	23
175.00	32
178.10	10
181.00	5
184.00	15
185.10	19
186.00	7
189.10	29
190.00	16
191.00	22
192.10	17
193.10	50
194.10	13
195.10	27
198.00	6
200.10	57
201.10	3
207.00	33
209.10	24
213.10	41
216.10	47
219.00	4
222.00	61
225.10	2
226.00	11
228.10	21
230.10	17
232.10	67
233.10	42
234.10	17
237.10	26
238.10	10
239.00	18
241.00	6
248.10	1
250.10	4
252.00	40
253.10	10
254.10	57
256.10	7
258.10	23
259.10	30
260.10	16
263.00	5
264.10	12
268.10	3
269.10	18
272.10	8
273.10	33
274.00	55
275.00	45
276.10	26
278.10	17
280.00	15
282.00	12
283.10	25
284.00	6
285.10	15
288.10	40
290.10	1
291.00	8
292.10	46
297.10	37
298.10	29
300.10	18
302.00	15
303.10	19
306.10	12
308.10	45
309.10	27
310.00	40
311.00	2
314.10	38
316.10	31
317.10	33
319.10	25
321.00	5
322.00	25
323.10	30
324.00	7
325.10	2
326.10	29
327.10	24
328.10	7
329.10	11
330.10	33
333.10	2
336.10	11
338.10	9
340.10	9
343.10	11
346.10	61
348.10	33
349.10	9
353.10	11
357.10	14
358.00	15
359.10	21
360.10	25
362.10	4
365.10	15
366.10	20
367.10	7
368.00	1
371.00	10
373.00	26
374.10	6
375.00	25
376.00	18
377.00	61
381.10	6
383.10	8
384.10	7
385.10	24
386.10	27
388.00	4
389.10	35
390.00	6
393.10	8
396.10	38
