m/z	Absolute Intensity
35.90	11
37.00	62
37.90	79
39.10	391
40.05	32
41.10	2126
42.15	255
43.10	10314
44.10	198
45.10	176
46.10	8
47.10	169
48.10	19
49.10	17
51.10	5
52.10	67
54.10	57
55.10	817
56.15	5498
57.10	55
58.10	259
59.10	232
61.10	2066
62.10	34
66.10	85
67.10	144
68.10	52
71.10	166
72.10	250
73.05	2255
74.10	154
75.10	929
76.10	23
79.10	72
81.00	418
82.10	784
83.10	80
86.00	114
87.10	1161
87.95	372
89.00	670
90.10	70
94.10	27
95.10	77
96.10	7905
97.05	1150
98.10	30
99.10	33
101.10	44
102.10	275
103.05	843
104.00	191
105.00	105
106.10	55
107.00	96
109.10	11
111.00	4
115.10	709
116.20	141
117.10	286
119.05	1228
120.10	225
121.10	297
122.10	64
123.10	33
124.10	59
125.10	16
128.00	2
130.10	45
131.00	122
132.10	158
133.10	3480
134.10	524
135.10	368
138.10	65
141.10	44
143.10	79
145.10	71
147.00	437
148.10	163
149.10	266
152.10	45
153.10	36
155.10	62
157.10	2
159.00	20
160.10	82
161.10	525
161.90	148
162.90	606
163.90	76
165.00	433
166.00	132
168.10	4
170.00	38
172.00	9
174.90	46
175.90	373
176.95	1553
177.90	186
178.90	217
180.00	172
181.00	36
181.90	24
186.00	24
189.00	112
190.00	56
190.95	4812
191.95	1142
193.00	1495
194.00	307
195.00	165
196.00	34
197.00	16
198.00	17
200.00	16
203.00	81
204.00	3
205.00	60
206.00	144
207.00	50940
207.95	10331
209.00	5753
210.00	691
211.00	278
212.00	55
214.00	25
215.00	5
217.00	58
218.00	4
220.00	12
221.00	24
223.00	30
224.00	28
230.00	12
231.00	1
233.00	22
235.00	2
236.00	24
241.00	1
243.00	2
244.00	20
245.00	14
246.00	29
248.00	5
249.00	42
253.00	34
254.00	22
255.00	26
256.00	12
257.00	20
260.00	52
261.00	49
263.00	38
265.00	17
266.00	15
269.00	13
270.00	3
271.00	12
274.00	36
279.00	32
280.00	8
283.00	33
286.00	1
289.00	62
290.00	5
294.00	20
296.00	21
297.00	13
298.00	17
301.00	28
304.00	4
305.00	2
306.00	17
309.00	1
310.00	11
311.00	7
313.00	15
318.00	30
319.00	42
320.00	4
321.00	31
324.00	46
325.00	40
329.00	42
333.00	5
334.00	18
335.00	16
340.00	15
341.00	19
342.00	3
343.00	49
346.00	12
347.00	27
348.00	34
350.00	40
351.00	3
352.00	2
353.00	39
356.00	20
360.00	52
364.00	28
366.00	20
367.00	30
372.00	25
374.00	27
375.00	21
382.00	9
388.00	35
389.00	61
390.00	59
393.00	47
394.00	2
395.00	41
398.00	41
