m/z	Absolute Intensity
36.00	8
39.10	379
41.10	54
44.00	262
47.00	1
48.00	5
49.10	82
50.00	88
51.00	111
52.00	144
56.20	249
58.20	14
62.20	67
63.20	208
64.20	12
65.20	427
66.20	85
70.10	58
71.20	157
73.20	25
74.20	143
77.05	490
78.00	102
79.20	248
80.20	21
86.20	31
88.20	7
89.00	70
90.10	53
91.10	942
92.10	163
93.10	249
94.10	51
97.10	9
98.10	73
100.10	17
101.10	126
102.10	26
103.10	151
104.10	125
105.15	1249
106.10	76
107.10	4
108.10	22
112.10	7
114.20	25
115.10	228
116.10	42
117.10	273
119.15	3248
120.15	1090
121.20	101
124.10	29
127.20	7
128.10	30
130.10	7
132.20	31
133.10	44
134.25	953
140.20	38
141.20	40
146.10	16
147.20	8
148.10	27
149.20	32
151.20	18
154.10	43
155.20	13
160.20	5
165.20	26
173.10	15
174.10	40
178.20	2
179.20	8
181.10	4
184.20	13
189.10	18
212.20	2
213.10	12
214.20	27
220.20	7
221.20	40
222.10	19
223.10	20
224.10	25
225.20	12
227.20	18
228.10	25
231.20	36
234.20	8
239.10	15
243.20	31
244.10	27
248.20	2
255.20	15
257.20	6
263.20	23
265.20	8
268.10	33
273.10	42
274.20	15
276.20	76
283.20	19
284.20	16
286.20	14
287.20	21
289.20	39
293.20	40
298.20	46
299.20	5
300.10	7
306.20	3
307.20	3
308.20	8
314.20	55
315.20	18
317.10	5
318.20	7
320.10	9
323.10	17
326.10	5
328.10	12
330.10	4
332.20	30
333.20	26
336.20	20
337.10	13
338.20	25
339.20	8
342.20	3
343.20	17
346.20	7
347.10	15
348.10	27
349.10	30
350.20	37
358.10	18
361.20	9
362.20	20
364.10	11
365.10	19
366.10	20
367.20	5
368.10	43
369.10	34
370.10	6
371.20	15
372.10	27
373.10	26
374.10	25
377.10	8
378.10	20
381.20	14
383.10	19
385.20	10
387.20	55
388.10	49
392.20	12
393.20	2
