m/z	Absolute Intensity
35.00	11
38.00	114
39.10	2207
41.10	5686
42.10	1943
43.10	7198
45.10	1468
46.10	1
50.10	32
52.10	82
53.10	492
54.10	311
55.15	5451
56.10	1849
57.15	2437
58.20	228
59.15	500
60.10	14045
61.05	2077
62.00	95
63.10	47
64.00	65
65.10	453
66.10	100
67.00	630
68.00	109
69.15	1758
70.10	227
72.10	39
73.10	8410
74.10	831
75.10	11
77.10	159
78.10	80
80.10	129
81.10	268
82.10	376
83.10	950
84.15	2893
85.15	2797
86.10	258
87.10	1785
88.10	233
89.10	199
90.10	85
91.10	3107
92.15	666
93.10	75
95.10	193
96.10	27
97.15	347
98.10	261
99.20	86
100.10	85
101.10	2863
102.10	263
103.10	73
104.10	69
105.10	24
106.10	19
107.10	45
108.10	65
109.10	39
110.10	7
111.10	63
113.10	51
115.10	928
116.10	99
117.20	75
120.10	52
124.20	79
125.20	154
126.20	18
127.10	317
128.20	75
129.20	223
130.10	3
131.20	100
133.10	26
135.20	24
136.20	22
137.10	6
138.20	31
139.10	57
143.10	37
144.20	26
146.20	250
147.20	6
148.10	27
149.20	27
150.20	5
152.20	87
153.10	4
154.20	9
157.20	9
158.20	3
159.10	3
160.20	12
163.10	67
164.20	37
165.20	38
166.10	20
169.10	18
170.20	15
173.20	2
174.20	21
178.20	56
180.10	22
182.20	3
183.10	17
189.20	69
193.20	35
194.20	15
195.20	3
196.20	33
197.20	19
198.20	24
199.10	8
202.10	24
212.20	17
214.20	18
217.10	28
221.20	5
223.20	10
224.20	3
227.10	67
228.20	3
230.20	45
231.20	16
236.10	10
237.10	3
238.20	4
239.20	14
248.10	14
251.10	27
253.20	7
254.20	47
258.10	2
260.20	30
261.20	18
263.20	39
268.20	2
269.20	37
276.20	5
278.20	15
284.10	31
287.10	9
290.10	9
291.10	44
292.20	11
293.10	23
298.20	12
304.20	8
305.20	32
307.10	1
308.20	35
309.20	10
317.20	8
320.10	1
321.10	21
328.20	58
329.20	26
338.10	4
342.20	50
346.20	19
352.10	36
354.20	17
356.20	25
359.20	8
360.10	4
361.10	1
363.10	11
364.20	18
367.20	18
368.20	31
369.20	30
371.10	13
372.20	7
373.20	35
377.20	38
378.20	1
379.20	12
381.20	5
382.10	77
385.10	7
386.20	18
387.20	4
390.10	13
391.10	40
394.10	3
395.20	69
